"70BCSV 	"
// AQ6370D OPTICAL SPECTRUM ANALYZER //                 
30
CTRWL,1350.000000
SPAN, 700.000000
START WL,1000.000000
STOP WL,1700.000000
WLFREQ, 0
REFL,-58.0
SSCLG, 3.6
LOFST,-7.3
RESLN,2.000
AVG,   1
SMPLAUTO,      1
SMPL,       1751
SMPLINTVL,0.4000
HIGH1
B-A
LSUNT,0
"NMSKH,""OFF"""
RESCOR,0
RESCORMODE,2
SMOOTH,0
FIBERTYPE,1
MEASWL,0
SWPSPD,0
"MODELNAME,""AQ6370D"""
NEBWCAL0,    0
NEBWCAL1,    0
NEBWCALWL,   0
RESPARM,10012
FREQPARM,10012

[TRACE DATA]
1000.0000,  -2.790
1000.4000,  -2.769
1000.8000,  -2.756
1001.2000,  -2.728
1001.6000,  -2.707
1002.0000,  -2.671
1002.4000,  -2.656
1002.8000,  -2.643
1003.2000,  -2.618
1003.6000,  -2.587
1004.0000,  -2.571
1004.4000,  -2.584
1004.8000,  -2.550
1005.2000,  -2.509
1005.6000,  -2.505
1006.0000,  -2.493
1006.4000,  -2.485
1006.8000,  -2.460
1007.2000,  -2.471
1007.6000,  -2.419
1008.0000,  -2.436
1008.4000,  -2.408
1008.8000,  -2.385
1009.2000,  -2.372
1009.6000,  -2.359
1010.0000,  -2.317
1010.4000,  -2.323
1010.8000,  -2.327
1011.2000,  -2.343
1011.6000,  -2.313
1012.0000,  -2.330
1012.4000,  -2.305
1012.8000,  -2.342
1013.2000,  -2.351
1013.6000,  -2.334
1014.0000,  -2.324
1014.4000,  -2.280
1014.8000,  -2.261
1015.2000,  -2.258
1015.6000,  -2.211
1016.0000,  -2.184
1016.4000,  -2.153
1016.8000,  -2.136
1017.2000,  -2.136
1017.6000,  -2.161
1018.0000,  -2.192
1018.4000,  -2.189
1018.8000,  -2.199
1019.2000,  -2.185
1019.6000,  -2.171
1020.0000,  -2.159
1020.4000,  -2.139
1020.8000,  -2.133
1021.2000,  -2.114
1021.6000,  -2.119
1022.0000,  -2.130
1022.4000,  -2.110
1022.8000,  -2.144
1023.2000,  -2.150
1023.6000,  -2.118
1024.0000,  -2.103
1024.4000,  -2.117
1024.8000,  -2.098
1025.2000,  -2.105
1025.6000,  -2.081
1026.0000,  -2.064
1026.4000,  -2.070
1026.8000,  -2.094
1027.2000,  -2.126
1027.6000,  -2.096
1028.0000,  -2.107
1028.4000,  -2.110
1028.8000,  -2.107
1029.2000,  -2.101
1029.6000,  -2.084
1030.0000,  -2.096
1030.4000,  -2.100
1030.8000,  -2.129
1031.2000,  -2.148
1031.6000,  -2.159
1032.0000,  -2.172
1032.4000,  -2.183
1032.8000,  -2.188
1033.2000,  -2.191
1033.6000,  -2.189
1034.0000,  -2.214
1034.4000,  -2.230
1034.8000,  -2.216
1035.2000,  -2.230
1035.6000,  -2.235
1036.0000,  -2.230
1036.4000,  -2.217
1036.8000,  -2.200
1037.2000,  -2.212
1037.6000,  -2.203
1038.0000,  -2.216
1038.4000,  -2.220
1038.8000,  -2.221
1039.2000,  -2.248
1039.6000,  -2.269
1040.0000,  -2.279
1040.4000,  -2.311
1040.8000,  -2.334
1041.2000,  -2.350
1041.6000,  -2.378
1042.0000,  -2.419
1042.4000,  -2.431
1042.8000,  -2.455
1043.2000,  -2.473
1043.6000,  -2.508
1044.0000,  -2.549
1044.4000,  -2.619
1044.8000,  -2.672
1045.2000,  -2.729
1045.6000,  -2.754
1046.0000,  -2.811
1046.4000,  -2.860
1046.8000,  -2.924
1047.2000,  -2.967
1047.6000,  -2.988
1048.0000,  -2.974
1048.4000,  -2.987
1048.8000,  -3.004
1049.2000,  -3.025
1049.6000,  -2.985
1050.0000,  -2.969
1050.4000,  -2.960
1050.8000,  -2.996
1051.2000,  -3.000
1051.6000,  -3.018
1052.0000,  -3.014
1052.4000,  -3.037
1052.8000,  -3.104
1053.2000,  -3.141
1053.6000,  -3.165
1054.0000,  -3.193
1054.4000,  -3.236
1054.8000,  -3.306
1055.2000,  -3.346
1055.6000,  -3.344
1056.0000,  -3.362
1056.4000,  -3.411
1056.8000,  -3.474
1057.2000,  -3.507
1057.6000,  -3.497
1058.0000,  -3.523
1058.4000,  -3.572
1058.8000,  -3.613
1059.2000,  -3.654
1059.6000,  -3.666
1060.0000,  -3.716
1060.4000,  -3.750
1060.8000,  -3.820
1061.2000,  -3.830
1061.6000,  -3.859
1062.0000,  -3.860
1062.4000,  -3.903
1062.8000,  -3.879
1063.2000,  -3.885
1063.6000,  -3.913
1064.0000,  -3.898
1064.4000,  -3.872
1064.8000,  -3.904
1065.2000,  -3.918
1065.6000,  -3.937
1066.0000,  -3.933
1066.4000,  -3.942
1066.8000,  -3.979
1067.2000,  -4.048
1067.6000,  -4.048
1068.0000,  -4.033
1068.4000,  -4.010
1068.8000,  -4.008
1069.2000,  -3.971
1069.6000,  -3.988
1070.0000,  -3.947
1070.4000,  -3.893
1070.8000,  -3.861
1071.2000,  -3.880
1071.6000,  -3.895
1072.0000,  -3.852
1072.4000,  -3.822
1072.8000,  -3.783
1073.2000,  -3.793
1073.6000,  -3.751
1074.0000,  -3.713
1074.4000,  -3.653
1074.8000,  -3.632
1075.2000,  -3.638
1075.6000,  -3.644
1076.0000,  -3.617
1076.4000,  -3.592
1076.8000,  -3.617
1077.2000,  -3.673
1077.6000,  -3.687
1078.0000,  -3.705
1078.4000,  -3.688
1078.8000,  -3.699
1079.2000,  -3.710
1079.6000,  -3.688
1080.0000,  -3.642
1080.4000,  -3.578
1080.8000,  -3.564
1081.2000,  -3.540
1081.6000,  -3.448
1082.0000,  -3.358
1082.4000,  -3.300
1082.8000,  -3.265
1083.2000,  -3.236
1083.6000,  -3.190
1084.0000,  -3.113
1084.4000,  -3.086
1084.8000,  -3.105
1085.2000,  -3.072
1085.6000,  -2.997
1086.0000,  -2.998
1086.4000,  -2.976
1086.8000,  -2.969
1087.2000,  -2.932
1087.6000,  -2.930
1088.0000,  -2.925
1088.4000,  -2.931
1088.8000,  -2.898
1089.2000,  -2.858
1089.6000,  -2.862
1090.0000,  -2.879
1090.4000,  -2.848
1090.8000,  -2.818
1091.2000,  -2.850
1091.6000,  -2.811
1092.0000,  -2.786
1092.4000,  -2.781
1092.8000,  -2.762
1093.2000,  -2.729
1093.6000,  -2.724
1094.0000,  -2.730
1094.4000,  -2.708
1094.8000,  -2.729
1095.2000,  -2.730
1095.6000,  -2.697
1096.0000,  -2.711
1096.4000,  -2.690
1096.8000,  -2.662
1097.2000,  -2.655
1097.6000,  -2.623
1098.0000,  -2.631
1098.4000,  -2.647
1098.8000,  -2.603
1099.2000,  -2.600
1099.6000,  -2.598
1100.0000,  -2.562
1100.4000,  -2.515
1100.8000,  -2.532
1101.2000,  -2.472
1101.6000,  -2.450
1102.0000,  -2.447
1102.4000,  -2.380
1102.8000,  -2.397
1103.2000,  -2.360
1103.6000,  -2.362
1104.0000,  -2.338
1104.4000,  -2.328
1104.8000,  -2.310
1105.2000,  -2.288
1105.6000,  -2.269
1106.0000,  -2.246
1106.4000,  -2.203
1106.8000,  -2.195
1107.2000,  -2.172
1107.6000,  -2.124
1108.0000,  -2.111
1108.4000,  -2.076
1108.8000,  -2.036
1109.2000,  -2.048
1109.6000,  -2.020
1110.0000,  -1.966
1110.4000,  -1.957
1110.8000,  -1.908
1111.2000,  -1.892
1111.6000,  -1.868
1112.0000,  -1.857
1112.4000,  -1.812
1112.8000,  -1.810
1113.2000,  -1.770
1113.6000,  -1.735
1114.0000,  -1.738
1114.4000,  -1.717
1114.8000,  -1.659
1115.2000,  -1.666
1115.6000,  -1.626
1116.0000,  -1.605
1116.4000,  -1.602
1116.8000,  -1.582
1117.2000,  -1.579
1117.6000,  -1.575
1118.0000,  -1.554
1118.4000,  -1.551
1118.8000,  -1.530
1119.2000,  -1.531
1119.6000,  -1.510
1120.0000,  -1.488
1120.4000,  -1.458
1120.8000,  -1.464
1121.2000,  -1.446
1121.6000,  -1.423
1122.0000,  -1.428
1122.4000,  -1.405
1122.8000,  -1.382
1123.2000,  -1.380
1123.6000,  -1.395
1124.0000,  -1.362
1124.4000,  -1.368
1124.8000,  -1.345
1125.2000,  -1.338
1125.6000,  -1.341
1126.0000,  -1.355
1126.4000,  -1.346
1126.8000,  -1.345
1127.2000,  -1.365
1127.6000,  -1.376
1128.0000,  -1.396
1128.4000,  -1.394
1128.8000,  -1.429
1129.2000,  -1.477
1129.6000,  -1.489
1130.0000,  -1.526
1130.4000,  -1.536
1130.8000,  -1.586
1131.2000,  -1.624
1131.6000,  -1.697
1132.0000,  -1.724
1132.4000,  -1.779
1132.8000,  -1.814
1133.2000,  -1.872
1133.6000,  -1.946
1134.0000,  -2.019
1134.4000,  -2.089
1134.8000,  -2.185
1135.2000,  -2.247
1135.6000,  -2.319
1136.0000,  -2.409
1136.4000,  -2.463
1136.8000,  -2.537
1137.2000,  -2.592
1137.6000,  -2.645
1138.0000,  -2.695
1138.4000,  -2.721
1138.8000,  -2.757
1139.2000,  -2.801
1139.6000,  -2.835
1140.0000,  -2.805
1140.4000,  -2.816
1140.8000,  -2.805
1141.2000,  -2.777
1141.6000,  -2.780
1142.0000,  -2.739
1142.4000,  -2.718
1142.8000,  -2.636
1143.2000,  -2.576
1143.6000,  -2.572
1144.0000,  -2.504
1144.4000,  -2.457
1144.8000,  -2.393
1145.2000,  -2.344
1145.6000,  -2.274
1146.0000,  -2.223
1146.4000,  -2.155
1146.8000,  -2.088
1147.2000,  -2.048
1147.6000,  -1.996
1148.0000,  -1.945
1148.4000,  -1.915
1148.8000,  -1.846
1149.2000,  -1.798
1149.6000,  -1.784
1150.0000,  -1.720
1150.4000,  -1.680
1150.8000,  -1.668
1151.2000,  -1.624
1151.6000,  -1.579
1152.0000,  -1.593
1152.4000,  -1.563
1152.8000,  -1.558
1153.2000,  -1.572
1153.6000,  -1.580
1154.0000,  -1.595
1154.4000,  -1.648
1154.8000,  -1.680
1155.2000,  -1.723
1155.6000,  -1.776
1156.0000,  -1.829
1156.4000,  -1.950
1156.8000,  -2.025
1157.2000,  -2.118
1157.6000,  -2.253
1158.0000,  -2.387
1158.4000,  -2.573
1158.8000,  -2.716
1159.2000,  -2.926
1159.6000,  -3.143
1160.0000,  -3.344
1160.4000,  -3.605
1160.8000,  -3.860
1161.2000,  -4.160
1161.6000,  -4.449
1162.0000,  -4.770
1162.4000,  -5.096
1162.8000,  -5.435
1163.2000,  -5.805
1163.6000,  -6.156
1164.0000,  -6.487
1164.4000,  -6.835
1164.8000,  -7.165
1165.2000,  -7.465
1165.6000,  -7.689
1166.0000,  -7.815
1166.4000,  -7.947
1166.8000,  -8.035
1167.2000,  -7.988
1167.6000,  -7.887
1168.0000,  -7.721
1168.4000,  -7.510
1168.8000,  -7.249
1169.2000,  -6.946
1169.6000,  -6.613
1170.0000,  -6.296
1170.4000,  -5.945
1170.8000,  -5.594
1171.2000,  -5.303
1171.6000,  -5.000
1172.0000,  -4.727
1172.4000,  -4.426
1172.8000,  -4.188
1173.2000,  -3.957
1173.6000,  -3.695
1174.0000,  -3.526
1174.4000,  -3.333
1174.8000,  -3.193
1175.2000,  -3.052
1175.6000,  -2.891
1176.0000,  -2.813
1176.4000,  -2.721
1176.8000,  -2.630
1177.2000,  -2.545
1177.6000,  -2.473
1178.0000,  -2.457
1178.4000,  -2.403
1178.8000,  -2.376
1179.2000,  -2.386
1179.6000,  -2.361
1180.0000,  -2.342
1180.4000,  -2.328
1180.8000,  -2.310
1181.2000,  -2.307
1181.6000,  -2.321
1182.0000,  -2.319
1182.4000,  -2.312
1182.8000,  -2.271
1183.2000,  -2.274
1183.6000,  -2.253
1184.0000,  -2.242
1184.4000,  -2.217
1184.8000,  -2.169
1185.2000,  -2.153
1185.6000,  -2.101
1186.0000,  -2.096
1186.4000,  -2.050
1186.8000,  -2.016
1187.2000,  -1.983
1187.6000,  -1.921
1188.0000,  -1.897
1188.4000,  -1.867
1188.8000,  -1.837
1189.2000,  -1.847
1189.6000,  -1.795
1190.0000,  -1.773
1190.4000,  -1.753
1190.8000,  -1.750
1191.2000,  -1.737
1191.6000,  -1.768
1192.0000,  -1.760
1192.4000,  -1.774
1192.8000,  -1.782
1193.2000,  -1.795
1193.6000,  -1.811
1194.0000,  -1.812
1194.4000,  -1.849
1194.8000,  -1.873
1195.2000,  -1.902
1195.6000,  -1.919
1196.0000,  -1.941
1196.4000,  -1.941
1196.8000,  -1.970
1197.2000,  -1.977
1197.6000,  -1.959
1198.0000,  -1.966
1198.4000,  -1.968
1198.8000,  -1.966
1199.2000,  -1.947
1199.6000,  -1.898
1200.0000,  -1.891
1200.4000,  -1.874
1200.8000,  -1.832
1201.2000,  -1.786
1201.6000,  -1.769
1202.0000,  -1.703
1202.4000,  -1.673
1202.8000,  -1.655
1203.2000,  -1.611
1203.6000,  -1.596
1204.0000,  -1.601
1204.4000,  -1.555
1204.8000,  -1.551
1205.2000,  -1.566
1205.6000,  -1.581
1206.0000,  -1.616
1206.4000,  -1.640
1206.8000,  -1.700
1207.2000,  -1.774
1207.6000,  -1.842
1208.0000,  -1.934
1208.4000,  -2.053
1208.8000,  -2.190
1209.2000,  -2.339
1209.6000,  -2.500
1210.0000,  -2.687
1210.4000,  -2.882
1210.8000,  -3.140
1211.2000,  -3.393
1211.6000,  -3.680
1212.0000,  -3.978
1212.4000,  -4.311
1212.8000,  -4.666
1213.2000,  -5.088
1213.6000,  -5.537
1214.0000,  -6.033
1214.4000,  -6.526
1214.8000,  -7.100
1215.2000,  -7.708
1215.6000,  -8.479
1216.0000,  -9.250
1216.4000,  -9.919
1216.8000, -11.003
1217.2000, -11.965
1217.6000, -13.350
1218.0000, -14.890
1218.4000, -16.149
1218.8000, -18.414
1219.2000, -19.968
1219.6000, -20.622
1220.0000, -21.244
1220.4000, -20.919
1220.8000, -18.498
1221.2000, -16.608
1221.6000, -15.030
1222.0000, -13.595
1222.4000, -12.524
1222.8000, -11.612
1223.2000, -10.531
1223.6000,  -9.774
1224.0000,  -9.064
1224.4000,  -8.359
1224.8000,  -7.767
1225.2000,  -7.269
1225.6000,  -6.668
1226.0000,  -6.264
1226.4000,  -5.850
1226.8000,  -5.449
1227.2000,  -5.099
1227.6000,  -4.823
1228.0000,  -4.509
1228.4000,  -4.295
1228.8000,  -4.024
1229.2000,  -3.772
1229.6000,  -3.580
1230.0000,  -3.404
1230.4000,  -3.227
1230.8000,  -3.097
1231.2000,  -2.939
1231.6000,  -2.829
1232.0000,  -2.714
1232.4000,  -2.607
1232.8000,  -2.523
1233.2000,  -2.429
1233.6000,  -2.356
1234.0000,  -2.292
1234.4000,  -2.228
1234.8000,  -2.178
1235.2000,  -2.152
1235.6000,  -2.100
1236.0000,  -2.079
1236.4000,  -2.045
1236.8000,  -2.018
1237.2000,  -2.001
1237.6000,  -1.982
1238.0000,  -1.960
1238.4000,  -1.947
1238.8000,  -1.943
1239.2000,  -1.927
1239.6000,  -1.907
1240.0000,  -1.902
1240.4000,  -1.905
1240.8000,  -1.888
1241.2000,  -1.876
1241.6000,  -1.856
1242.0000,  -1.850
1242.4000,  -1.841
1242.8000,  -1.819
1243.2000,  -1.818
1243.6000,  -1.794
1244.0000,  -1.769
1244.4000,  -1.776
1244.8000,  -1.732
1245.2000,  -1.693
1245.6000,  -1.685
1246.0000,  -1.661
1246.4000,  -1.621
1246.8000,  -1.619
1247.2000,  -1.591
1247.6000,  -1.568
1248.0000,  -1.528
1248.4000,  -1.492
1248.8000,  -1.471
1249.2000,  -1.457
1249.6000,  -1.425
1250.0000,  -1.389
1250.4000,  -1.393
1250.8000,  -1.362
1251.2000,  -1.322
1251.6000,  -1.322
1252.0000,  -1.300
1252.4000,  -1.302
1252.8000,  -1.269
1253.2000,  -1.261
1253.6000,  -1.237
1254.0000,  -1.251
1254.4000,  -1.244
1254.8000,  -1.223
1255.2000,  -1.235
1255.6000,  -1.224
1256.0000,  -1.231
1256.4000,  -1.230
1256.8000,  -1.244
1257.2000,  -1.251
1257.6000,  -1.276
1258.0000,  -1.264
1258.4000,  -1.290
1258.8000,  -1.301
1259.2000,  -1.313
1259.6000,  -1.344
1260.0000,  -1.359
1260.4000,  -1.392
1260.8000,  -1.377
1261.2000,  -1.403
1261.6000,  -1.448
1262.0000,  -1.458
1262.4000,  -1.473
1262.8000,  -1.493
1263.2000,  -1.523
1263.6000,  -1.537
1264.0000,  -1.557
1264.4000,  -1.574
1264.8000,  -1.577
1265.2000,  -1.601
1265.6000,  -1.622
1266.0000,  -1.621
1266.4000,  -1.637
1266.8000,  -1.633
1267.2000,  -1.655
1267.6000,  -1.653
1268.0000,  -1.654
1268.4000,  -1.663
1268.8000,  -1.664
1269.2000,  -1.661
1269.6000,  -1.650
1270.0000,  -1.632
1270.4000,  -1.639
1270.8000,  -1.629
1271.2000,  -1.608
1271.6000,  -1.618
1272.0000,  -1.606
1272.4000,  -1.602
1272.8000,  -1.610
1273.2000,  -1.586
1273.6000,  -1.571
1274.0000,  -1.572
1274.4000,  -1.565
1274.8000,  -1.552
1275.2000,  -1.560
1275.6000,  -1.558
1276.0000,  -1.550
1276.4000,  -1.587
1276.8000,  -1.574
1277.2000,  -1.563
1277.6000,  -1.585
1278.0000,  -1.617
1278.4000,  -1.616
1278.8000,  -1.639
1279.2000,  -1.658
1279.6000,  -1.675
1280.0000,  -1.666
1280.4000,  -1.699
1280.8000,  -1.731
1281.2000,  -1.765
1281.6000,  -1.806
1282.0000,  -1.843
1282.4000,  -1.855
1282.8000,  -1.868
1283.2000,  -1.908
1283.6000,  -1.961
1284.0000,  -1.974
1284.4000,  -2.025
1284.8000,  -2.041
1285.2000,  -2.045
1285.6000,  -2.089
1286.0000,  -2.129
1286.4000,  -2.129
1286.8000,  -2.156
1287.2000,  -2.177
1287.6000,  -2.190
1288.0000,  -2.228
1288.4000,  -2.218
1288.8000,  -2.246
1289.2000,  -2.251
1289.6000,  -2.260
1290.0000,  -2.271
1290.4000,  -2.256
1290.8000,  -2.272
1291.2000,  -2.275
1291.6000,  -2.253
1292.0000,  -2.251
1292.4000,  -2.245
1292.8000,  -2.224
1293.2000,  -2.249
1293.6000,  -2.244
1294.0000,  -2.245
1294.4000,  -2.257
1294.8000,  -2.265
1295.2000,  -2.250
1295.6000,  -2.218
1296.0000,  -2.261
1296.4000,  -2.257
1296.8000,  -2.273
1297.2000,  -2.277
1297.6000,  -2.304
1298.0000,  -2.329
1298.4000,  -2.354
1298.8000,  -2.411
1299.2000,  -2.431
1299.6000,  -2.484
1300.0000,  -2.519
1300.4000,  -2.594
1300.8000,  -2.657
1301.2000,  -2.736
1301.6000,  -2.806
1302.0000,  -2.897
1302.4000,  -2.994
1302.8000,  -3.094
1303.2000,  -3.218
1303.6000,  -3.344
1304.0000,  -3.455
1304.4000,  -3.603
1304.8000,  -3.754
1305.2000,  -3.937
1305.6000,  -4.117
1306.0000,  -4.301
1306.4000,  -4.492
1306.8000,  -4.747
1307.2000,  -4.933
1307.6000,  -5.172
1308.0000,  -5.401
1308.4000,  -5.702
1308.8000,  -6.027
1309.2000,  -6.271
1309.6000,  -6.591
1310.0000,  -6.968
1310.4000,  -7.343
1310.8000,  -7.707
1311.2000,  -8.098
1311.6000,  -8.543
1312.0000,  -9.028
1312.4000,  -9.479
1312.8000, -10.019
1313.2000, -10.568
1313.6000, -11.022
1314.0000, -11.602
1314.4000, -12.294
1314.8000, -12.597
1315.2000, -13.169
1315.6000, -13.822
1316.0000, -14.397
1316.4000, -14.720
1316.8000, -15.249
1317.2000, -15.075
1317.6000, -14.928
1318.0000, -15.034
1318.4000, -14.144
1318.8000, -13.997
1319.2000, -13.278
1319.6000, -12.931
1320.0000, -12.220
1320.4000, -11.793
1320.8000, -11.159
1321.2000, -10.541
1321.6000, -10.156
1322.0000,  -9.585
1322.4000,  -9.189
1322.8000,  -8.703
1323.2000,  -8.275
1323.6000,  -7.890
1324.0000,  -7.534
1324.4000,  -7.181
1324.8000,  -6.824
1325.2000,  -6.576
1325.6000,  -6.208
1326.0000,  -5.960
1326.4000,  -5.742
1326.8000,  -5.503
1327.2000,  -5.255
1327.6000,  -5.023
1328.0000,  -4.820
1328.4000,  -4.635
1328.8000,  -4.431
1329.2000,  -4.265
1329.6000,  -4.107
1330.0000,  -3.984
1330.4000,  -3.853
1330.8000,  -3.724
1331.2000,  -3.597
1331.6000,  -3.503
1332.0000,  -3.419
1332.4000,  -3.335
1332.8000,  -3.238
1333.2000,  -3.159
1333.6000,  -3.078
1334.0000,  -3.013
1334.4000,  -2.964
1334.8000,  -2.915
1335.2000,  -2.871
1335.6000,  -2.818
1336.0000,  -2.783
1336.4000,  -2.765
1336.8000,  -2.715
1337.2000,  -2.728
1337.6000,  -2.662
1338.0000,  -2.665
1338.4000,  -2.653
1338.8000,  -2.644
1339.2000,  -2.644
1339.6000,  -2.637
1340.0000,  -2.645
1340.4000,  -2.652
1340.8000,  -2.646
1341.2000,  -2.624
1341.6000,  -2.660
1342.0000,  -2.661
1342.4000,  -2.661
1342.8000,  -2.674
1343.2000,  -2.677
1343.6000,  -2.686
1344.0000,  -2.700
1344.4000,  -2.709
1344.8000,  -2.719
1345.2000,  -2.724
1345.6000,  -2.723
1346.0000,  -2.708
1346.4000,  -2.726
1346.8000,  -2.732
1347.2000,  -2.748
1347.6000,  -2.728
1348.0000,  -2.707
1348.4000,  -2.700
1348.8000,  -2.703
1349.2000,  -2.702
1349.6000,  -2.670
1350.0000,  -2.667
1350.4000,  -2.654
1350.8000,  -2.632
1351.2000,  -2.619
1351.6000,  -2.571
1352.0000,  -2.564
1352.4000,  -2.527
1352.8000,  -2.513
1353.2000,  -2.486
1353.6000,  -2.445
1354.0000,  -2.404
1354.4000,  -2.373
1354.8000,  -2.344
1355.2000,  -2.306
1355.6000,  -2.270
1356.0000,  -2.210
1356.4000,  -2.184
1356.8000,  -2.155
1357.2000,  -2.113
1357.6000,  -2.069
1358.0000,  -2.016
1358.4000,  -1.990
1358.8000,  -1.926
1359.2000,  -1.916
1359.6000,  -1.883
1360.0000,  -1.801
1360.4000,  -1.803
1360.8000,  -1.769
1361.2000,  -1.715
1361.6000,  -1.692
1362.0000,  -1.645
1362.4000,  -1.613
1362.8000,  -1.603
1363.2000,  -1.567
1363.6000,  -1.550
1364.0000,  -1.530
1364.4000,  -1.490
1364.8000,  -1.490
1365.2000,  -1.453
1365.6000,  -1.437
1366.0000,  -1.422
1366.4000,  -1.404
1366.8000,  -1.390
1367.2000,  -1.384
1367.6000,  -1.357
1368.0000,  -1.354
1368.4000,  -1.362
1368.8000,  -1.322
1369.2000,  -1.314
1369.6000,  -1.307
1370.0000,  -1.312
1370.4000,  -1.286
1370.8000,  -1.305
1371.2000,  -1.308
1371.6000,  -1.303
1372.0000,  -1.300
1372.4000,  -1.303
1372.8000,  -1.280
1373.2000,  -1.309
1373.6000,  -1.305
1374.0000,  -1.297
1374.4000,  -1.303
1374.8000,  -1.324
1375.2000,  -1.314
1375.6000,  -1.302
1376.0000,  -1.333
1376.4000,  -1.345
1376.8000,  -1.363
1377.2000,  -1.356
1377.6000,  -1.355
1378.0000,  -1.362
1378.4000,  -1.385
1378.8000,  -1.394
1379.2000,  -1.423
1379.6000,  -1.415
1380.0000,  -1.415
1380.4000,  -1.459
1380.8000,  -1.447
1381.2000,  -1.477
1381.6000,  -1.487
1382.0000,  -1.507
1382.4000,  -1.516
1382.8000,  -1.545
1383.2000,  -1.549
1383.6000,  -1.566
1384.0000,  -1.587
1384.4000,  -1.592
1384.8000,  -1.602
1385.2000,  -1.632
1385.6000,  -1.644
1386.0000,  -1.626
1386.4000,  -1.648
1386.8000,  -1.674
1387.2000,  -1.688
1387.6000,  -1.682
1388.0000,  -1.691
1388.4000,  -1.687
1388.8000,  -1.711
1389.2000,  -1.705
1389.6000,  -1.722
1390.0000,  -1.700
1390.4000,  -1.697
1390.8000,  -1.707
1391.2000,  -1.693
1391.6000,  -1.684
1392.0000,  -1.678
1392.4000,  -1.647
1392.8000,  -1.653
1393.2000,  -1.650
1393.6000,  -1.608
1394.0000,  -1.604
1394.4000,  -1.572
1394.8000,  -1.579
1395.2000,  -1.544
1395.6000,  -1.544
1396.0000,  -1.518
1396.4000,  -1.495
1396.8000,  -1.476
1397.2000,  -1.434
1397.6000,  -1.432
1398.0000,  -1.408
1398.4000,  -1.421
1398.8000,  -1.397
1399.2000,  -1.387
1399.6000,  -1.383
1400.0000,  -1.367
1400.4000,  -1.374
1400.8000,  -1.383
1401.2000,  -1.351
1401.6000,  -1.339
1402.0000,  -1.353
1402.4000,  -1.350
1402.8000,  -1.369
1403.2000,  -1.382
1403.6000,  -1.378
1404.0000,  -1.396
1404.4000,  -1.420
1404.8000,  -1.431
1405.2000,  -1.479
1405.6000,  -1.481
1406.0000,  -1.507
1406.4000,  -1.532
1406.8000,  -1.555
1407.2000,  -1.568
1407.6000,  -1.595
1408.0000,  -1.630
1408.4000,  -1.658
1408.8000,  -1.706
1409.2000,  -1.742
1409.6000,  -1.775
1410.0000,  -1.812
1410.4000,  -1.832
1410.8000,  -1.849
1411.2000,  -1.875
1411.6000,  -1.925
1412.0000,  -1.921
1412.4000,  -1.936
1412.8000,  -1.965
1413.2000,  -1.976
1413.6000,  -1.985
1414.0000,  -2.013
1414.4000,  -2.000
1414.8000,  -2.033
1415.2000,  -1.981
1415.6000,  -1.986
1416.0000,  -1.998
1416.4000,  -2.012
1416.8000,  -1.964
1417.2000,  -1.978
1417.6000,  -1.950
1418.0000,  -1.907
1418.4000,  -1.904
1418.8000,  -1.879
1419.2000,  -1.809
1419.6000,  -1.826
1420.0000,  -1.776
1420.4000,  -1.767
1420.8000,  -1.725
1421.2000,  -1.690
1421.6000,  -1.661
1422.0000,  -1.643
1422.4000,  -1.620
1422.8000,  -1.573
1423.2000,  -1.555
1423.6000,  -1.521
1424.0000,  -1.498
1424.4000,  -1.479
1424.8000,  -1.444
1425.2000,  -1.408
1425.6000,  -1.416
1426.0000,  -1.404
1426.4000,  -1.366
1426.8000,  -1.366
1427.2000,  -1.361
1427.6000,  -1.351
1428.0000,  -1.366
1428.4000,  -1.347
1428.8000,  -1.350
1429.2000,  -1.339
1429.6000,  -1.342
1430.0000,  -1.338
1430.4000,  -1.341
1430.8000,  -1.364
1431.2000,  -1.376
1431.6000,  -1.414
1432.0000,  -1.389
1432.4000,  -1.418
1432.8000,  -1.426
1433.2000,  -1.435
1433.6000,  -1.464
1434.0000,  -1.463
1434.4000,  -1.503
1434.8000,  -1.514
1435.2000,  -1.506
1435.6000,  -1.523
1436.0000,  -1.533
1436.4000,  -1.552
1436.8000,  -1.527
1437.2000,  -1.529
1437.6000,  -1.542
1438.0000,  -1.538
1438.4000,  -1.527
1438.8000,  -1.529
1439.2000,  -1.510
1439.6000,  -1.493
1440.0000,  -1.487
1440.4000,  -1.480
1440.8000,  -1.466
1441.2000,  -1.443
1441.6000,  -1.418
1442.0000,  -1.404
1442.4000,  -1.362
1442.8000,  -1.377
1443.2000,  -1.310
1443.6000,  -1.297
1444.0000,  -1.267
1444.4000,  -1.233
1444.8000,  -1.235
1445.2000,  -1.187
1445.6000,  -1.153
1446.0000,  -1.104
1446.4000,  -1.104
1446.8000,  -1.082
1447.2000,  -1.055
1447.6000,  -1.033
1448.0000,  -1.018
1448.4000,  -0.995
1448.8000,  -0.992
1449.2000,  -0.967
1449.6000,  -0.977
1450.0000,  -0.953
1450.4000,  -0.942
1450.8000,  -0.941
1451.2000,  -0.970
1451.6000,  -0.944
1452.0000,  -0.964
1452.4000,  -0.971
1452.8000,  -0.983
1453.2000,  -1.013
1453.6000,  -1.032
1454.0000,  -1.052
1454.4000,  -1.086
1454.8000,  -1.096
1455.2000,  -1.152
1455.6000,  -1.193
1456.0000,  -1.193
1456.4000,  -1.256
1456.8000,  -1.298
1457.2000,  -1.330
1457.6000,  -1.372
1458.0000,  -1.452
1458.4000,  -1.455
1458.8000,  -1.530
1459.2000,  -1.572
1459.6000,  -1.660
1460.0000,  -1.698
1460.4000,  -1.742
1460.8000,  -1.791
1461.2000,  -1.838
1461.6000,  -1.877
1462.0000,  -1.936
1462.4000,  -1.975
1462.8000,  -2.044
1463.2000,  -2.050
1463.6000,  -2.093
1464.0000,  -2.132
1464.4000,  -2.165
1464.8000,  -2.174
1465.2000,  -2.208
1465.6000,  -2.233
1466.0000,  -2.269
1466.4000,  -2.300
1466.8000,  -2.284
1467.2000,  -2.304
1467.6000,  -2.317
1468.0000,  -2.306
1468.4000,  -2.302
1468.8000,  -2.272
1469.2000,  -2.269
1469.6000,  -2.244
1470.0000,  -2.236
1470.4000,  -2.217
1470.8000,  -2.188
1471.2000,  -2.183
1471.6000,  -2.153
1472.0000,  -2.138
1472.4000,  -2.100
1472.8000,  -2.053
1473.2000,  -2.022
1473.6000,  -2.005
1474.0000,  -1.977
1474.4000,  -1.937
1474.8000,  -1.886
1475.2000,  -1.876
1475.6000,  -1.851
1476.0000,  -1.847
1476.4000,  -1.769
1476.8000,  -1.763
1477.2000,  -1.717
1477.6000,  -1.712
1478.0000,  -1.681
1478.4000,  -1.669
1478.8000,  -1.643
1479.2000,  -1.620
1479.6000,  -1.618
1480.0000,  -1.603
1480.4000,  -1.595
1480.8000,  -1.564
1481.2000,  -1.559
1481.6000,  -1.535
1482.0000,  -1.563
1482.4000,  -1.563
1482.8000,  -1.559
1483.2000,  -1.542
1483.6000,  -1.544
1484.0000,  -1.548
1484.4000,  -1.584
1484.8000,  -1.574
1485.2000,  -1.573
1485.6000,  -1.568
1486.0000,  -1.610
1486.4000,  -1.595
1486.8000,  -1.621
1487.2000,  -1.638
1487.6000,  -1.642
1488.0000,  -1.648
1488.4000,  -1.681
1488.8000,  -1.669
1489.2000,  -1.711
1489.6000,  -1.700
1490.0000,  -1.723
1490.4000,  -1.715
1490.8000,  -1.754
1491.2000,  -1.760
1491.6000,  -1.758
1492.0000,  -1.788
1492.4000,  -1.797
1492.8000,  -1.782
1493.2000,  -1.791
1493.6000,  -1.803
1494.0000,  -1.824
1494.4000,  -1.828
1494.8000,  -1.822
1495.2000,  -1.834
1495.6000,  -1.819
1496.0000,  -1.843
1496.4000,  -1.828
1496.8000,  -1.842
1497.2000,  -1.829
1497.6000,  -1.835
1498.0000,  -1.836
1498.4000,  -1.851
1498.8000,  -1.836
1499.2000,  -1.820
1499.6000,  -1.815
1500.0000,  -1.826
1500.4000,  -1.818
1500.8000,  -1.802
1501.2000,  -1.812
1501.6000,  -1.786
1502.0000,  -1.806
1502.4000,  -1.786
1502.8000,  -1.782
1503.2000,  -1.795
1503.6000,  -1.763
1504.0000,  -1.765
1504.4000,  -1.763
1504.8000,  -1.754
1505.2000,  -1.758
1505.6000,  -1.765
1506.0000,  -1.766
1506.4000,  -1.760
1506.8000,  -1.784
1507.2000,  -1.750
1507.6000,  -1.771
1508.0000,  -1.782
1508.4000,  -1.756
1508.8000,  -1.767
1509.2000,  -1.779
1509.6000,  -1.768
1510.0000,  -1.775
1510.4000,  -1.780
1510.8000,  -1.802
1511.2000,  -1.810
1511.6000,  -1.831
1512.0000,  -1.838
1512.4000,  -1.846
1512.8000,  -1.852
1513.2000,  -1.873
1513.6000,  -1.891
1514.0000,  -1.914
1514.4000,  -1.930
1514.8000,  -1.940
1515.2000,  -1.979
1515.6000,  -1.989
1516.0000,  -1.990
1516.4000,  -2.031
1516.8000,  -2.079
1517.2000,  -2.111
1517.6000,  -2.125
1518.0000,  -2.168
1518.4000,  -2.168
1518.8000,  -2.230
1519.2000,  -2.269
1519.6000,  -2.291
1520.0000,  -2.360
1520.4000,  -2.380
1520.8000,  -2.442
1521.2000,  -2.477
1521.6000,  -2.528
1522.0000,  -2.565
1522.4000,  -2.616
1522.8000,  -2.694
1523.2000,  -2.725
1523.6000,  -2.786
1524.0000,  -2.856
1524.4000,  -2.903
1524.8000,  -2.958
1525.2000,  -3.032
1525.6000,  -3.106
1526.0000,  -3.156
1526.4000,  -3.220
1526.8000,  -3.276
1527.2000,  -3.364
1527.6000,  -3.432
1528.0000,  -3.520
1528.4000,  -3.612
1528.8000,  -3.686
1529.2000,  -3.760
1529.6000,  -3.877
1530.0000,  -3.969
1530.4000,  -4.019
1530.8000,  -4.154
1531.2000,  -4.253
1531.6000,  -4.344
1532.0000,  -4.437
1532.4000,  -4.553
1532.8000,  -4.643
1533.2000,  -4.818
1533.6000,  -4.961
1534.0000,  -5.038
1534.4000,  -5.173
1534.8000,  -5.277
1535.2000,  -5.422
1535.6000,  -5.594
1536.0000,  -5.737
1536.4000,  -5.859
1536.8000,  -6.050
1537.2000,  -6.217
1537.6000,  -6.375
1538.0000,  -6.533
1538.4000,  -6.699
1538.8000,  -6.898
1539.2000,  -7.048
1539.6000,  -7.305
1540.0000,  -7.490
1540.4000,  -7.611
1540.8000,  -7.906
1541.2000,  -8.006
1541.6000,  -8.362
1542.0000,  -8.565
1542.4000,  -8.742
1542.8000,  -9.047
1543.2000,  -9.300
1543.6000,  -9.518
1544.0000,  -9.841
1544.4000, -10.090
1544.8000, -10.398
1545.2000, -10.692
1545.6000, -10.943
1546.0000, -11.214
1546.4000, -11.708
1546.8000, -11.996
1547.2000, -12.285
1547.6000, -12.687
1548.0000, -13.132
1548.4000, -13.842
1548.8000, -13.975
1549.2000, -14.468
1549.6000, -14.763
1550.0000, -15.726
1550.4000, -15.815
1550.8000, -16.416
1551.2000, -17.231
1551.6000, -17.833
1552.0000, -18.710
1552.4000, -18.752
1552.8000, -20.142
1553.2000, -21.026
1553.6000, -21.874
1554.0000, -21.524
1554.4000, -21.633
1555.2000, -22.811
1555.6000, -24.201
1556.0000, -23.905
1556.4000, -25.766
1556.8000, -23.979
1557.2000, -24.098
1557.6000, -23.461
1558.0000, -19.653
1558.4000, -22.149
1558.8000, -20.220
1559.2000, -19.939
1559.6000, -18.060
1560.0000, -16.891
1560.4000, -17.342
1560.8000, -16.349
1561.2000, -15.937
1561.6000, -15.860
1562.0000, -14.354
1562.4000, -14.421
1562.8000, -14.298
1563.2000, -13.923
1563.6000, -13.244
1564.0000, -12.943
1564.4000, -12.352
1564.8000, -12.365
1565.2000, -11.867
1565.6000, -11.361
1566.0000, -11.231
1566.4000, -10.875
1566.8000, -10.534
1567.2000, -10.317
1567.6000,  -9.945
1568.0000,  -9.857
1568.4000,  -9.554
1568.8000,  -9.407
1569.2000,  -9.035
1569.6000,  -8.916
1570.0000,  -8.676
1570.4000,  -8.472
1570.8000,  -8.356
1571.2000,  -8.151
1571.6000,  -7.888
1572.0000,  -7.910
1572.4000,  -7.640
1572.8000,  -7.432
1573.2000,  -7.275
1573.6000,  -7.148
1574.0000,  -7.015
1574.4000,  -6.956
1574.8000,  -6.745
1575.2000,  -6.671
1575.6000,  -6.500
1576.0000,  -6.432
1576.4000,  -6.370
1576.8000,  -6.150
1577.2000,  -6.064
1577.6000,  -5.998
1578.0000,  -5.897
1578.4000,  -5.783
1578.8000,  -5.678
1579.2000,  -5.622
1579.6000,  -5.523
1580.0000,  -5.476
1580.4000,  -5.359
1580.8000,  -5.319
1581.2000,  -5.207
1581.6000,  -5.101
1582.0000,  -5.120
1582.4000,  -5.032
1582.8000,  -4.981
1583.2000,  -4.882
1583.6000,  -4.806
1584.0000,  -4.751
1584.4000,  -4.627
1584.8000,  -4.632
1585.2000,  -4.559
1585.6000,  -4.528
1586.0000,  -4.451
1586.4000,  -4.407
1586.8000,  -4.340
1587.2000,  -4.299
1587.6000,  -4.222
1588.0000,  -4.187
1588.4000,  -4.168
1588.8000,  -4.057
1589.2000,  -4.072
1589.6000,  -4.041
1590.0000,  -3.991
1590.4000,  -3.956
1590.8000,  -3.891
1591.2000,  -3.855
1591.6000,  -3.902
1592.0000,  -3.895
1592.4000,  -3.785
1592.8000,  -3.738
1593.2000,  -3.763
1593.6000,  -3.717
1594.0000,  -3.711
1594.4000,  -3.652
1594.8000,  -3.668
1595.2000,  -3.667
1595.6000,  -3.614
1596.0000,  -3.641
1596.4000,  -3.661
1596.8000,  -3.648
1597.2000,  -3.626
1597.6000,  -3.641
1598.0000,  -3.594
1598.4000,  -3.660
1598.8000,  -3.613
1599.2000,  -3.621
1599.6000,  -3.597
1600.0000,  -3.626
1600.4000,  -3.661
1600.8000,  -3.678
1601.2000,  -3.655
1601.6000,  -3.658
1602.0000,  -3.643
1602.4000,  -3.659
1602.8000,  -3.617
1603.2000,  -3.677
1603.6000,  -3.703
1604.0000,  -3.681
1604.4000,  -3.747
1604.8000,  -3.748
1605.2000,  -3.733
1605.6000,  -3.711
1606.0000,  -3.733
1606.4000,  -3.785
1606.8000,  -3.746
1607.2000,  -3.796
1607.6000,  -3.757
1608.0000,  -3.776
1608.4000,  -3.809
1608.8000,  -3.810
1609.2000,  -3.742
1609.6000,  -3.808
1610.0000,  -3.782
1610.4000,  -3.769
1610.8000,  -3.760
1611.2000,  -3.741
1611.6000,  -3.741
1612.0000,  -3.745
1612.4000,  -3.717
1612.8000,  -3.691
1613.2000,  -3.730
1613.6000,  -3.682
1614.0000,  -3.643
1614.4000,  -3.687
1614.8000,  -3.575
1615.2000,  -3.541
1615.6000,  -3.505
1616.0000,  -3.516
1616.4000,  -3.453
1616.8000,  -3.422
1617.2000,  -3.382
1617.6000,  -3.376
1618.0000,  -3.338
1618.4000,  -3.277
1618.8000,  -3.289
1619.2000,  -3.187
1619.6000,  -3.167
1620.0000,  -3.135
1620.4000,  -3.153
1620.8000,  -3.081
1621.2000,  -3.001
1621.6000,  -3.003
1622.0000,  -2.979
1622.4000,  -2.942
1622.8000,  -2.871
1623.2000,  -2.918
1623.6000,  -2.817
1624.0000,  -2.768
1624.4000,  -2.745
1624.8000,  -2.690
1625.2000,  -2.702
1625.6000,  -2.689
1626.0000,  -2.687
1626.4000,  -2.647
1626.8000,  -2.602
1627.2000,  -2.613
1627.6000,  -2.537
1628.0000,  -2.566
1628.4000,  -2.547
1628.8000,  -2.513
1629.2000,  -2.443
1629.6000,  -2.521
1630.0000,  -2.480
1630.4000,  -2.471
1630.8000,  -2.399
1631.2000,  -2.417
1631.6000,  -2.400
1632.0000,  -2.328
1632.4000,  -2.337
1632.8000,  -2.351
1633.2000,  -2.339
1633.6000,  -2.270
1634.0000,  -2.306
1634.4000,  -2.262
1634.8000,  -2.267
1635.2000,  -2.198
1635.6000,  -2.203
1636.0000,  -2.208
1636.4000,  -2.236
1636.8000,  -2.228
1637.2000,  -2.270
1637.6000,  -2.153
1638.0000,  -2.196
1638.4000,  -2.222
1638.8000,  -2.192
1639.2000,  -2.199
1639.6000,  -2.210
1640.0000,  -2.168
1640.4000,  -2.127
1640.8000,  -2.157
1641.2000,  -2.188
1641.6000,  -2.158
1642.0000,  -2.193
1642.4000,  -2.213
1642.8000,  -2.090
1643.2000,  -2.154
1643.6000,  -2.154
1644.0000,  -2.073
1644.4000,  -2.196
1644.8000,  -2.174
1645.2000,  -2.137
1645.6000,  -2.186
1646.0000,  -2.139
1646.4000,  -2.127
1646.8000,  -2.213
1647.2000,  -2.180
1647.6000,  -2.137
1648.0000,  -2.164
1648.4000,  -2.155
1648.8000,  -2.141
1649.2000,  -2.109
1649.6000,  -2.116
1650.0000,  -2.126
1650.4000,  -2.084
1650.8000,  -2.133
1651.2000,  -2.139
1651.6000,  -2.153
1652.0000,  -2.115
1652.4000,  -2.120
1652.8000,  -2.161
1653.2000,  -2.110
1653.6000,  -2.065
1654.0000,  -2.084
1654.4000,  -2.162
1654.8000,  -2.018
1655.2000,  -2.106
1655.6000,  -1.933
1656.0000,  -2.141
1656.4000,  -1.970
1656.8000,  -2.086
1657.2000,  -2.049
1657.6000,  -2.132
1658.0000,  -2.124
1658.4000,  -2.083
1658.8000,  -1.934
1659.2000,  -2.019
1659.6000,  -2.140
1660.0000,  -2.133
1660.4000,  -1.918
1660.8000,  -2.029
1661.2000,  -2.073
1661.6000,  -2.145
1662.0000,  -2.128
1662.4000,  -2.175
1662.8000,  -1.947
1663.2000,  -2.322
1663.6000,  -2.090
1664.0000,  -1.951
1664.4000,  -1.807
1664.8000,  -2.135
1665.2000,  -1.847
1665.6000,  -1.981
1666.0000,  -2.141
1666.4000,  -2.018
1666.8000,  -2.162
1667.2000,  -2.256
1667.6000,  -1.950
1668.0000,  -2.085
1668.4000,  -1.962
1668.8000,  -1.765
1669.2000,  -2.067
1669.6000,  -1.973
1670.0000,  -1.917
1670.4000,  -2.163
1670.8000,  -2.009
1671.2000,  -1.947
1671.6000,  -1.964
1672.0000,  -2.028
1672.4000,  -2.262
1672.8000,  -1.926
1673.2000,  -1.710
1673.6000,  -2.198
1674.0000,  -1.779
1674.4000,  -2.125
1674.8000,  -1.548
1675.2000,  -2.114
1675.6000,  -1.811
1676.0000,  -1.891
1676.4000,  -2.092
1676.8000,  -2.071
1677.2000,  -1.998
1677.6000,  -1.689
1678.0000,  -2.092
1678.4000,  -2.073
1678.8000,  -2.038
1679.2000,  -2.396
1679.6000,  -1.813
1680.0000,  -1.762
1680.4000,  -1.896
1680.8000,  -1.625
1681.2000,  -1.752
1681.6000,  -1.952
1682.0000,  -1.632
1682.4000,  -2.202
1682.8000,  -1.637
1683.2000,  -2.237
1683.6000,  -2.029
1684.0000,  -1.790
1684.4000,  -1.356
1684.8000,  -1.876
1685.2000,  -2.799
1685.6000,  -1.950
1686.0000,  -1.955
1686.4000,  -1.646
1686.8000,  -1.724
1687.2000,  -1.391
1687.6000,  -0.912
1688.0000,  -2.331
1688.4000,  -2.429
1688.8000,  -1.749
1689.2000,  -1.312
1689.6000,  -2.859
1690.0000,  -1.294
1690.4000,  -2.410
1690.8000,  -2.473
1691.2000,  -2.041
1691.6000,  -2.218
1692.0000,  -1.360
1692.4000,  -2.832
1692.8000,  -1.755
1693.2000,  -1.929
1693.6000,  -0.982
1694.0000,  -2.190
1694.4000,  -1.623
1694.8000,  +0.163
1695.2000,  -2.830
1695.6000,  -3.300
1696.0000,  -2.344
1696.4000,  -1.235
1696.8000,  -3.597
1697.2000,  -0.539
1697.6000,  -2.218
1698.0000,  -1.359
1698.4000,  -1.847
1698.8000,  -1.178
1699.2000,  -3.271
1699.6000,  -1.625
1700.0000,  +0.043
